{
  "resourceType": "Bundle",
  "id": "005-CanifugCremolum-EE-FullProduct",
  "type": "transaction",
  "entry": [
    {
      "fullUrl": "https://hl7-eu.github.io/unicom-ig/branches/mpd-r4b/MedicinalProductDefinition/CanifugCremolum-EE-MPD",
      "resource": {
        "resourceType": "MedicinalProductDefinition",
        "id": "CanifugCremolum-EE-MPD",
        "meta": {
          "profile": [
            "http://unicom-project.eu/fhir/StructureDefinition/PPLMedicinalProductDefinition"
          ]
        },
        "identifier": [
          {
            "system": "http://ema.europa.eu/fhir/mpId",
            "value": "EE-100004795-10280"
          },
          {
            "system": "http://ema.europa.eu/fhir/pmsId",
            "value": "EE00000003"
          }
        ],
        "domain": {
          "coding": [
            {
              "system": "https://spor.ema.europa.eu/v1/lists/100000000004",
              "code": "100000000012",
              "display": "Human use"
            }
          ]
        },
        "status": {
          "coding": [
            {
              "system": "https://spor.ema.europa.eu/v1/lists/200000005003",
              "code": "200000005004",
              "display": "Current"
            }
          ]
        },
        "combinedPharmaceuticalDoseForm": {
          "coding": [
            {
              "system": "https://spor.ema.europa.eu/v1/lists/200000000008",
              "code": "100000173972",
              "display": "Cream + pessary"
            }
          ]
        },
        "legalStatusOfSupply": {
          "coding": [
            {
              "system": "https://spor.ema.europa.eu/v1/lists/100000072051",
              "code": "100000072084",
              "display": "Medicinal Product subject to medical prescription"
            }
          ]
        },
        "classification": [
          {
            "coding": [
              {
                "system": "https://spor.ema.europa.eu/v1/lists/100000093533",
                "code": "100000095693",
                "display": "clotrimazole"
              },
              {
                "system": "http://www.whocc.no/atc",
                "code": "G01AF02",
                "display": "clotrimazole"
              }
            ]
          }
        ],
        "name": [
          {
            "productName": "Canifug Cremolum",
            "namePart": [
              {
                "part": "Canifug Cremolum",
                "type": {
                  "coding": [
                    {
                      "system": "https://spor.ema.europa.eu/v1/lists/220000000000",
                      "code": "220000000002",
                      "display": "Invented name part"
                    }
                  ]
                }
              }
            ],
            "countryLanguage": [
              {
                "country": {
                  "coding": [
                    {
                      "system": "https://spor.ema.europa.eu/v1/lists/100000000002",
                      "code": "100000000388",
                      "display": "Republic of Estonia"
                    }
                  ]
                },
                "language": {
                  "coding": [
                    {
                      "system": "https://spor.ema.europa.eu/v1/lists/100000072057",
                      "code": "100000072172",
                      "display": "Estonian"
                    }
                  ]
                }
              }
            ]
          }
        ]
      },
      "request": {
        "method": "PUT",
        "url": "MedicinalProductDefinition/CanifugCremolum-EE-MPD"
      }
    },
    {
      "fullUrl": "https://hl7-eu.github.io/unicom-ig/branches/mpd-r4b/RegulatedAuthorization/CanifugCremolum-EE-RA",
      "resource": {
        "resourceType": "RegulatedAuthorization",
        "id": "CanifugCremolum-EE-RA",
        "meta": {
          "profile": [
            "http://unicom-project.eu/fhir/StructureDefinition/PPLRegulatedAuthorization"
          ]
        },
        "identifier": [
          {
            "value": "366201"
          }
        ],
        "subject": [
          {
            "reference": "MedicinalProductDefinition/CanifugCremolum-EE-MPD"
          }
        ],
        "type": {
          "coding": [
            {
              "system": "https://spor.ema.europa.eu/v1/lists/220000000060",
              "code": "220000000061",
              "display": "Marketing Authorisation"
            }
          ]
        },
        "region": [
          {
            "coding": [
              {
                "system": "https://spor.ema.europa.eu/v1/lists/100000000002",
                "code": "100000000388",
                "display": "Republic of Estonia"
              }
            ]
          }
        ],
        "status": {
          "coding": [
            {
              "system": "https://spor.ema.europa.eu/v1/lists/100000072049",
              "code": "200000017708",
              "display": "Valid - Renewed/Varied"
            }
          ]
        },
        "statusDate": "2011-10-19",
        "holder": {
          "reference": "Organization/LOC-100004795-Wolff-Arzneimittel"
        }
      },
      "request": {
        "method": "PUT",
        "url": "RegulatedAuthorization/CanifugCremolum-EE-RA"
      }
    },
    {
      "fullUrl": "https://hl7-eu.github.io/unicom-ig/branches/mpd-r4b/AdministrableProductDefinition/CanifugCremolum-10mg1g-Cream-EE-APD",
      "resource": {
        "resourceType": "AdministrableProductDefinition",
        "id": "CanifugCremolum-10mg1g-Cream-EE-APD",
        "meta": {
          "profile": [
            "http://unicom-project.eu/fhir/StructureDefinition/PPLAdministrableProductDefinition"
          ]
        },
        "status": "active",
        "formOf": [
          {
            "reference": "MedicinalProductDefinition/CanifugCremolum-EE-MPD"
          }
        ],
        "administrableDoseForm": {
          "coding": [
            {
              "system": "https://spor.ema.europa.eu/v1/lists/200000000004",
              "code": "100000073712",
              "display": "Cream"
            }
          ]
        },
        "unitOfPresentation": {
          "coding": [
            {
              "system": "https://spor.ema.europa.eu/v1/lists/200000000014",
              "code": "200000002156",
              "display": "Tube"
            }
          ]
        },
        "producedFrom": [
          {
            "reference": "ManufacturedItemDefinition/CanifugCremolum-10mg1g-Cream-EE-MID"
          }
        ],
        "routeOfAdministration": [
          {
            "code": {
              "coding": [
                {
                  "system": "https://spor.ema.europa.eu/v1/lists/100000073345",
                  "code": "100000073566",
                  "display": "Cutaneous use"
                }
              ]
            }
          }
        ]
      },
      "request": {
        "method": "PUT",
        "url": "AdministrableProductDefinition/CanifugCremolum-10mg1g-Cream-EE-APD"
      }
    },
    {
      "fullUrl": "https://hl7-eu.github.io/unicom-ig/branches/mpd-r4b/AdministrableProductDefinition/CanifugCremolum-100mg-Pessary-EE-APD",
      "resource": {
        "resourceType": "AdministrableProductDefinition",
        "id": "CanifugCremolum-100mg-Pessary-EE-APD",
        "meta": {
          "profile": [
            "http://unicom-project.eu/fhir/StructureDefinition/PPLAdministrableProductDefinition"
          ]
        },
        "status": "active",
        "formOf": [
          {
            "reference": "MedicinalProductDefinition/CanifugCremolum-EE-MPD"
          }
        ],
        "administrableDoseForm": {
          "coding": [
            {
              "system": "https://spor.ema.europa.eu/v1/lists/200000000004",
              "code": "100000073815",
              "display": "Pessary"
            }
          ]
        },
        "unitOfPresentation": {
          "coding": [
            {
              "system": "https://spor.ema.europa.eu/v1/lists/200000000014",
              "code": "200000002137",
              "display": "Pessary"
            }
          ]
        },
        "producedFrom": [
          {
            "reference": "ManufacturedItemDefinition/CanifugCremolum-100mg-Pessary-EE-MID"
          }
        ],
        "routeOfAdministration": [
          {
            "code": {
              "coding": [
                {
                  "system": "https://spor.ema.europa.eu/v1/lists/100000073345",
                  "code": "100000073639",
                  "display": "Vaginal use"
                }
              ]
            }
          }
        ]
      },
      "request": {
        "method": "PUT",
        "url": "AdministrableProductDefinition/CanifugCremolum-100mg-Pessary-EE-APD"
      }
    },
    {
      "fullUrl": "https://hl7-eu.github.io/unicom-ig/branches/mpd-r4b/ManufacturedItemDefinition/CanifugCremolum-10mg1g-Cream-EE-MID",
      "resource": {
        "resourceType": "ManufacturedItemDefinition",
        "id": "CanifugCremolum-10mg1g-Cream-EE-MID",
        "meta": {
          "profile": [
            "http://unicom-project.eu/fhir/StructureDefinition/PPLManufacturedItemDefinition"
          ]
        },
        "status": "active",
        "manufacturedDoseForm": {
          "coding": [
            {
              "system": "https://spor.ema.europa.eu/v1/lists/200000000004",
              "code": "100000073712",
              "display": "Cream"
            }
          ]
        },
        "unitOfPresentation": {
          "coding": [
            {
              "system": "https://spor.ema.europa.eu/v1/lists/200000000014",
              "code": "200000002156",
              "display": "Tube"
            }
          ]
        }
      },
      "request": {
        "method": "PUT",
        "url": "ManufacturedItemDefinition/CanifugCremolum-10mg1g-Cream-EE-MID"
      }
    },
    {
      "fullUrl": "https://hl7-eu.github.io/unicom-ig/branches/mpd-r4b/ManufacturedItemDefinition/CanifugCremolum-100mg-Pessary-EE-MID",
      "resource": {
        "resourceType": "ManufacturedItemDefinition",
        "id": "CanifugCremolum-100mg-Pessary-EE-MID",
        "meta": {
          "profile": [
            "http://unicom-project.eu/fhir/StructureDefinition/PPLManufacturedItemDefinition"
          ]
        },
        "status": "active",
        "manufacturedDoseForm": {
          "coding": [
            {
              "system": "https://spor.ema.europa.eu/v1/lists/200000000004",
              "code": "100000073815",
              "display": "Pessary"
            }
          ]
        },
        "unitOfPresentation": {
          "coding": [
            {
              "system": "https://spor.ema.europa.eu/v1/lists/200000000014",
              "code": "200000002137",
              "display": "Pessary"
            }
          ]
        }
      },
      "request": {
        "method": "PUT",
        "url": "ManufacturedItemDefinition/CanifugCremolum-100mg-Pessary-EE-MID"
      }
    },
    {
      "fullUrl": "https://hl7-eu.github.io/unicom-ig/branches/mpd-r4b/Ingredient/CanifugCremolum-10mg1g-Cream-EE-I",
      "resource": {
        "resourceType": "Ingredient",
        "id": "CanifugCremolum-10mg1g-Cream-EE-I",
        "meta": {
          "profile": [
            "http://unicom-project.eu/fhir/StructureDefinition/PPLIngredient"
          ]
        },
        "status": "active",
        "for": [
          {
            "reference": "MedicinalProductDefinition/CanifugCremolum-EE-MPD"
          },
          {
            "reference": "ManufacturedItemDefinition/CanifugCremolum-10mg1g-Cream-EE-MID"
          },
          {
            "reference": "AdministrableProductDefinition/CanifugCremolum-10mg1g-Cream-EE-APD"
          }
        ],
        "role": {
          "coding": [
            {
              "system": "https://spor.ema.europa.eu/v1/lists/100000072050",
              "code": "100000072072",
              "display": "Active"
            }
          ]
        },
        "substance": {
          "code": {
            "concept": {
              "coding": [
                {
                  "system": "https://spor.ema.europa.eu/v2/SubstanceDefinition",
                  "code": "100000092074",
                  "display": "CLOTRIMAZOLE"
                }
              ]
            }
          },
          "strength": [
            {
              "concentrationRatio": {
                "numerator": {
                  "value": 10,
                  "unit": "milligram(s)",
                  "system": "https://spor.ema.europa.eu/v1/lists/100000110633",
                  "code": "100000110655"
                },
                "denominator": {
                  "value": 1,
                  "unit": "gram(s)",
                  "system": "https://spor.ema.europa.eu/v1/lists/100000110633",
                  "code": "100000110654"
                }
              }
            }
          ]
        }
      },
      "request": {
        "method": "PUT",
        "url": "Ingredient/CanifugCremolum-10mg1g-Cream-EE-I"
      }
    },
    {
      "fullUrl": "https://hl7-eu.github.io/unicom-ig/branches/mpd-r4b/Ingredient/CanifugCremolum-100mg-Pessary-EE-I",
      "resource": {
        "resourceType": "Ingredient",
        "id": "CanifugCremolum-100mg-Pessary-EE-I",
        "meta": {
          "profile": [
            "http://unicom-project.eu/fhir/StructureDefinition/PPLIngredient"
          ]
        },
        "status": "active",
        "for": [
          {
            "reference": "MedicinalProductDefinition/CanifugCremolum-EE-MPD"
          },
          {
            "reference": "ManufacturedItemDefinition/CanifugCremolum-100mg-Pessary-EE-MID"
          },
          {
            "reference": "AdministrableProductDefinition/CanifugCremolum-100mg-Pessary-EE-APD"
          }
        ],
        "role": {
          "coding": [
            {
              "system": "https://spor.ema.europa.eu/v1/lists/100000072050",
              "code": "100000072072",
              "display": "Active"
            }
          ]
        },
        "substance": {
          "code": {
            "concept": {
              "coding": [
                {
                  "system": "https://spor.ema.europa.eu/v2/SubstanceDefinition",
                  "code": "100000092074",
                  "display": "CLOTRIMAZOLE"
                }
              ]
            }
          },
          "strength": [
            {
              "presentationRatio": {
                "numerator": {
                  "value": 100,
                  "unit": "milligram(s)",
                  "system": "https://spor.ema.europa.eu/v1/lists/100000110633",
                  "code": "100000110655"
                },
                "denominator": {
                  "value": 1,
                  "unit": "Pessary",
                  "system": "https://spor.ema.europa.eu/v1/lists/200000000014",
                  "code": "200000002137"
                }
              }
            }
          ]
        }
      },
      "request": {
        "method": "PUT",
        "url": "Ingredient/CanifugCremolum-100mg-Pessary-EE-I"
      }
    },
    {
      "fullUrl": "https://hl7-eu.github.io/unicom-ig/branches/mpd-r4b/PackagedProductDefinition/CanifugCremolum-EE-PPD-1033692",
      "resource": {
        "resourceType": "PackagedProductDefinition",
        "id": "CanifugCremolum-EE-PPD-1033692",
        "meta": {
          "profile": [
            "http://unicom-project.eu/fhir/StructureDefinition/PPLPackagedProductDefinition"
          ]
        },
        "identifier": [
          {
            "system": "http://ema.europa.eu/example/pcid",
            "value": "EE-100004795-10280-1033692"
          }
        ],
        "packageFor": [
          {
            "reference": "MedicinalProductDefinition/CanifugCremolum-EE-MPD"
          }
        ],
        "containedItemQuantity": [
          {
            "value": 6,
            "unit": "Pessary",
            "system": "https://spor.ema.europa.eu/v1/lists/200000000014",
            "code": "200000002137"
          },
          {
            "value": 1,
            "unit": "Tube",
            "system": "https://spor.ema.europa.eu/v1/lists/200000000014",
            "code": "200000002156"
          }
        ],
        "description": "Alu/PE-fooliumist valmistatud ribapakend, mis on asetatud väliskarpi. Kreem on alumiiniumtuubis ja omakorda pappkarbis. Kombineeritud pakend sisaldab: 6 vaginaalsuposiiti ja 20 g kreemi",
        "marketingStatus": [
          {
            "country": {
              "coding": [
                {
                  "system": "https://spor.ema.europa.eu/v1/lists/100000000002",
                  "code": "100000000388",
                  "display": "Republic of Estonia"
                }
              ]
            },
            "status": {
              "coding": [
                {
                  "system": "https://spor.ema.europa.eu/v1/lists/100000072052",
                  "code": "100000072083",
                  "display": "Marketed"
                }
              ]
            }
          }
        ],
        "package": {
          "type": {
            "coding": [
              {
                "system": "https://spor.ema.europa.eu/v1/lists/100000073346",
                "code": "100000073498",
                "display": "Box"
              }
            ]
          },
          "quantity": 1,
          "material": [
            {
              "coding": [
                {
                  "system": "https://spor.ema.europa.eu/v1/lists/200000003199",
                  "code": "200000003529",
                  "display": "Cardboard"
                }
              ]
            }
          ],
          "package": [
            {
              "type": {
                "coding": [
                  {
                    "system": "https://spor.ema.europa.eu/v1/lists/100000073346",
                    "code": "100000073559",
                    "display": "Strip"
                  }
                ]
              },
              "quantity": 1,
              "material": [
                {
                  "coding": [
                    {
                      "system": "https://spor.ema.europa.eu/v1/lists/200000003199",
                      "code": "200000003200",
                      "display": "Aluminium"
                    }
                  ]
                },
                {
                  "coding": [
                    {
                      "system": "https://spor.ema.europa.eu/v1/lists/200000003199",
                      "code": "200000003214",
                      "display": "PolyEthylene"
                    }
                  ]
                }
              ],
              "containedItem": [
                {
                  "item": {
                    "reference": {
                      "reference": "ManufacturedItemDefinition/CanifugCremolum-100mg-Pessary-EE-MID"
                    }
                  },
                  "amount": {
                    "value": 6
                  }
                }
              ]
            },
            {
              "type": {
                "coding": [
                  {
                    "system": "https://spor.ema.europa.eu/v1/lists/100000073346",
                    "code": "100000073346",
                    "display": "Tube"
                  }
                ]
              },
              "quantity": 1,
              "material": [
                {
                  "coding": [
                    {
                      "system": "https://spor.ema.europa.eu/v1/lists/200000003199",
                      "code": "200000003200",
                      "display": "Aluminium"
                    }
                  ]
                }
              ],
              "containedItem": [
                {
                  "item": {
                    "reference": {
                      "reference": "ManufacturedItemDefinition/CanifugCremolum-10mg1g-Cream-EE-MID"
                    }
                  },
                  "amount": {
                    "value": 20,
                    "unit": "gram(s)",
                    "system": "https://spor.ema.europa.eu/v1/lists/100000110633",
                    "code": "100000110654"
                  }
                }
              ]
            }
          ]
        }
      },
      "request": {
        "method": "PUT",
        "url": "PackagedProductDefinition/CanifugCremolum-EE-PPD-1033692"
      }
    }
  ]
}